time,ax,ay,az,atotal
0.010347127914428711,0.11,-0.01,0.09,0.14
0.011788129806518555,-0.09,0.09,-0.18,0.22
0.024019241333007812,0.01,-0.05,-0.31,0.31
0.030669212341308594,0.02,-0.11,-0.34,0.35
0.04113006591796875,-0.16,-0.15,-0.29,0.36
0.0521550178527832,-0.3,-0.13,-0.14,0.35
0.061025142669677734,-0.2,-0.09,0.02,0.22
0.07108211517333984,-0.06,-0.08,0.19,0.21
0.08115291595458984,0.07,-0.03,0.35,0.35
0.091156005859375,0.14,-0.03,0.4,0.42
0.10224723815917969,0.13,0.08,0.41,0.43
0.1114811897277832,0.24,0.28,0.37,0.52
0.12654590606689453,0.41,0.37,0.29,0.62
0.13059210777282715,0.54,0.4,0.23,0.71
0.14092803001403809,0.63,0.38,0.08,0.74
0.15074396133422852,0.54,0.22,-0.19,0.61
0.16110610961914062,0.3,0.06,-0.41,0.51
0.17094206809997559,0.05,-0.01,-0.44,0.44
0.18108510971069336,-0.09,-0.13,-0.45,0.47
0.19144606590270996,-0.11,-0.26,-0.44,0.52
0.2018132209777832,-0.04,-0.3,-0.36,0.47
0.21099209785461426,0.1,-0.24,-0.25,0.36
0.22722816467285156,0.28,-0.15,-0.17,0.36
0.23026609420776367,0.24,-0.07,-0.02,0.25
0.24097108840942383,0.0,-0.05,0.3,0.3
0.25028204917907715,0.0,-0.07,0.68,0.68
0.26103925704956055,0.23,-0.02,0.85,0.88
0.27112603187561035,0.29,0.04,0.94,0.98
0.2810361385345459,0.26,0.12,0.62,0.68
0.2904551029205322,0.34,0.23,0.31,0.51
0.3007059097290039,0.37,0.4,0.09,0.55
0.31071996688842773,0.43,0.47,-0.11,0.64
0.3251981735229492,0.34,0.34,-0.13,0.49
0.3298990726470947,0.16,0.12,-0.02,0.2
0.34029197692871094,0.0,-0.03,0.21,0.21
0.3503742218017578,-0.1,-0.14,0.48,0.5
0.3606390953063965,-0.11,-0.29,0.53,0.61
0.3711581230163574,-0.14,-0.43,0.29,0.53
0.38033103942871094,-0.23,-0.46,0.12,0.52
0.3905351161956787,-0.31,-0.41,0.03,0.51
0.4004020690917969,-0.26,-0.33,-0.19,0.46
0.4105050563812256,-0.13,-0.3,-0.5,0.59
0.4280362129211426,-0.02,-0.32,-0.79,0.85
0.4296259880065918,0.08,-0.28,-1.04,1.08
0.44008803367614746,0.01,-0.24,-1.23,1.25
0.45008206367492676,-0.09,-0.22,-1.38,1.4
0.46010494232177734,-0.13,-0.19,-1.33,1.34
0.47052907943725586,-0.04,-0.1,-1.1,1.1
0.4800419807434082,0.13,-0.14,-0.77,0.79
0.4902491569519043,0.18,-0.32,-0.45,0.58
0.500298023223877,0.07,-0.44,-0.17,0.47
0.5103490352630615,0.02,-0.38,-0.05,0.38
0.5261149406433105,0.03,-0.29,0.12,0.31
0.5292561054229736,-0.04,-0.23,0.23,0.32
0.5399489402770996,-0.02,-0.16,0.2,0.25
0.549915075302124,0.11,-0.04,0.12,0.16
0.5596580505371094,0.23,0.11,-0.02,0.25
0.5707240104675293,0.33,0.26,-0.19,0.46
0.5801510810852051,0.35,0.29,-0.28,0.53
0.5897111892700195,0.25,0.16,-0.21,0.36
0.5992622375488281,0.12,0.05,-0.04,0.13
0.6098730564117432,-0.03,0.02,0.15,0.15
0.6271672248840332,-0.16,-0.07,0.38,0.41
0.6292431354522705,-0.16,-0.22,0.64,0.69
0.6393520832061768,-0.19,-0.32,0.85,0.92
0.649806022644043,-0.21,-0.24,0.91,0.96
0.6598970890045166,-0.18,-0.07,0.8,0.82
0.680549144744873,-0.1,0.13,0.64,0.66
0.6817591190338135,0.05,0.32,0.46,0.56
0.689359188079834,0.33,0.55,0.24,0.68
0.6991660594940186,0.55,0.74,-0.03,0.92
0.7089791297912598,0.68,0.73,-0.33,1.05
0.720332145690918,0.79,0.47,-0.43,1.01
0.7325780391693115,0.61,0.03,-0.4,0.73
0.7388970851898193,-0.07,-0.44,-0.38,0.58
0.7494039535522461,-0.92,-0.75,-0.42,1.25
0.7596979141235352,-1.25,-0.86,-0.38,1.56
0.7692270278930664,-0.9,-0.64,-0.2,1.12
0.7800650596618652,-0.21,-0.13,-0.17,0.29
0.7899410724639893,0.58,0.26,-0.21,0.66
0.7987730503082275,1.17,0.5,-0.08,1.27
0.8084602355957031,1.36,0.63,0.17,1.5
0.8183560371398926,1.35,0.49,0.38,1.48
0.8284640312194824,0.94,0.1,0.35,1.0
0.8383779525756836,0.21,-0.35,0.19,0.45
0.8485469818115234,-0.48,-0.74,0.0,0.88
0.858644962310791,-0.85,-0.97,-0.4,1.35
0.8682031631469727,-0.49,-0.74,-0.79,1.18
0.8784880638122559,0.39,-0.44,-1.02,1.17
0.8883919715881348,1.27,-0.1,-0.84,1.52
0.8982980251312256,1.78,0.36,-0.45,1.87
0.9082531929016113,2.0,0.76,-0.3,2.16
0.9179282188415527,2.07,0.83,-0.22,2.24
0.9284329414367676,1.95,0.61,0.0,2.04
0.9381542205810547,1.69,0.22,0.25,1.72
0.9485421180725098,1.25,-0.05,0.67,1.41
0.9582600593566895,0.74,-0.22,1.29,1.5
0.9680440425872803,0.28,-0.4,1.79,1.85
0.9780511856079102,0.02,-0.5,2.0,2.06
0.9878849983215332,-0.03,-0.49,1.99,2.04
0.9979162216186523,-0.07,-0.39,1.83,1.87
1.0079731941223145,-0.22,-0.36,1.62,1.67
1.017725944519043,-0.18,-0.35,1.35,1.4
1.0283679962158203,-0.14,-0.24,0.91,0.95
1.0383071899414062,-0.19,-0.2,0.61,0.66
1.0486690998077393,-0.11,-0.32,0.49,0.59
1.0580792427062988,-0.13,-0.51,0.45,0.69
1.0676140785217285,-0.41,-0.55,0.36,0.77
1.0796220302581787,-0.75,-0.43,0.22,0.89
1.0915732383728027,-0.8,-0.28,0.01,0.84
1.0990872383117676,-0.67,-0.22,-0.14,0.71
1.1093671321868896,-0.62,-0.21,-0.24,0.69
1.1180341243743896,-0.69,-0.2,-0.29,0.77
1.1294150352478027,-0.84,-0.32,-0.29,0.94
1.138991117477417,-0.99,-0.45,-0.23,1.11
1.1482391357421875,-1.12,-0.45,-0.09,1.21
1.15773606300354,-1.18,-0.45,0.05,1.26
1.1677441596984863,-1.06,-0.45,0.19,1.16
1.177746057510376,-0.84,-0.23,0.31,0.92
1.190101146697998,-0.68,0.16,0.25,0.74
1.1980061531066895,-0.56,0.34,0.19,0.68
1.2081432342529297,-0.51,0.44,0.26,0.72
1.2176120281219482,-0.51,0.55,0.31,0.81
1.2301712036132812,-0.48,0.45,0.25,0.7
1.2373619079589844,-0.54,0.31,0.29,0.68
1.2481679916381836,-0.58,0.22,0.33,0.7
1.2575621604919434,-0.65,0.11,0.2,0.68
1.2681159973144531,-0.68,0.06,-0.02,0.68
1.2780141830444336,-0.62,0.14,-0.29,0.69
1.2884540557861328,-0.54,0.27,-0.46,0.75
1.2986469268798828,-0.47,0.32,-0.55,0.79
1.307878017425537,-0.33,0.32,-0.68,0.82
1.3188471794128418,-0.19,0.39,-0.81,0.91
1.3299050331115723,-0.13,0.4,-0.83,0.93
1.3374741077423096,-0.24,0.28,-0.77,0.85
1.3477931022644043,-0.5,0.16,-0.7,0.87
1.3574481010437012,-0.68,0.08,-0.6,0.91
1.3675460815429688,-0.67,0.03,-0.48,0.82
1.3773231506347656,-0.54,0.06,-0.32,0.63
1.387439250946045,-0.32,0.16,-0.14,0.38
1.397292137145996,-0.02,0.34,-0.12,0.36
1.4073619842529297,0.35,0.52,-0.29,0.69
1.4169979095458984,0.53,0.58,-0.36,0.86
1.4304640293121338,0.59,0.56,-0.39,0.9
1.4367132186889648,0.6,0.46,-0.44,0.87
1.4478421211242676,0.54,0.21,-0.44,0.72
1.4569411277770996,0.42,-0.08,-0.44,0.61
1.467212200164795,0.29,-0.25,-0.44,0.58
1.4771480560302734,0.2,-0.33,-0.46,0.6
1.4867229461669922,0.2,-0.41,-0.46,0.64
1.4973559379577637,0.19,-0.48,-0.47,0.69
1.5075159072875977,0.09,-0.47,-0.36,0.59
1.5168662071228027,0.07,-0.4,-0.21,0.45
1.5315160751342773,0.09,-0.3,-0.13,0.33
1.536372184753418,0.11,-0.27,-0.05,0.29
1.5468790531158447,0.1,-0.28,0.02,0.29
1.5567960739135742,0.06,-0.19,-0.06,0.2
1.56687593460083,0.01,-0.13,-0.2,0.23
1.5765771865844727,-0.02,-0.22,-0.18,0.28
1.5865440368652344,-0.02,-0.29,-0.12,0.31
1.5970790386199951,-0.03,-0.3,-0.14,0.33
1.607706069946289,-0.07,-0.3,-0.12,0.33
1.6164212226867676,-0.06,-0.25,-0.09,0.27
1.6336369514465332,-0.03,-0.18,-0.02,0.18
1.6361021995544434,0.14,-0.09,0.09,0.18
1.6469359397888184,0.31,0.03,0.11,0.33
1.6573162078857422,0.44,0.18,0.01,0.47
1.6667821407318115,0.5,0.26,-0.12,0.57
1.6764321327209473,0.48,0.18,-0.15,0.53
1.686155080795288,0.43,0.04,-0.19,0.47
1.696303129196167,0.29,-0.13,-0.24,0.39
1.708008050918579,0.12,-0.24,-0.3,0.4
1.716123104095459,0.06,-0.28,-0.4,0.49
1.7321529388427734,0.08,-0.28,-0.39,0.48
1.7359590530395508,0.21,-0.19,-0.32,0.42
1.7465510368347168,0.27,-0.04,-0.22,0.35
1.7577540874481201,0.33,0.08,-0.19,0.38
1.766280174255371,0.55,0.15,-0.17,0.59
1.776435136795044,0.59,0.14,-0.14,0.62
1.7859139442443848,0.45,0.08,-0.22,0.5
1.7964770793914795,0.22,-0.03,-0.28,0.35
1.8065741062164307,0.02,-0.18,-0.27,0.32
1.81575608253479,-0.1,-0.22,-0.32,0.4
1.835042953491211,-0.17,-0.24,-0.39,0.48
1.83634614944458,-0.21,-0.25,-0.56,0.64
1.846127986907959,-0.31,-0.24,-0.72,0.81
1.8558180332183838,-0.33,-0.27,-0.71,0.82
1.8660931587219238,-0.26,-0.22,-0.58,0.67
1.8760490417480469,-0.18,-0.12,-0.35,0.41
1.8862519264221191,-0.1,-0.05,-0.12,0.16
1.8957180976867676,0.0,-0.06,0.05,0.07
1.9062230587005615,0.2,-0.08,0.12,0.24
1.9155631065368652,0.32,-0.2,0.13,0.39
1.9363279342651367,0.39,-0.54,0.16,0.68
1.9375250339508057,0.32,-1.31,0.14,1.35
1.945566177368164,0.01,-1.81,0.11,1.81
1.9552631378173828,-0.01,-1.76,0.01,1.76
1.965609073638916,0.02,-1.88,-0.45,1.93
1.975560188293457,0.19,-2.08,-1.12,2.37
1.9856982231140137,0.52,-2.57,-2.02,3.3
1.9956281185150146,-0.32,-4.52,-3.13,5.5
2.005263090133667,-1.65,-6.74,-3.7,7.86
2.0154170989990234,-1.59,-6.55,-3.25,7.48
2.0357441902160645,-1.58,-7.05,-3.7,8.11
2.0370192527770996,-1.8,-8.17,-5.09,9.79
2.044706106185913,-1.98,-8.27,-5.08,9.9
2.0554609298706055,-2.13,-8.28,-4.86,9.83
2.0654759407043457,-2.28,-8.32,-4.75,9.84
2.0750880241394043,-2.42,-8.37,-4.59,9.84
2.085322141647339,-2.56,-8.41,-4.42,9.83
2.0956192016601562,-2.69,-8.45,-4.25,9.83
2.1052510738372803,-2.82,-8.48,-4.1,9.83
2.1155130863189697,-2.93,-8.52,-3.93,9.82
2.1382689476013184,-3.04,-8.56,-3.77,9.83
2.1393990516662598,-3.14,-8.59,-3.61,9.83
2.1444950103759766,-3.23,-8.62,-3.43,9.82
2.15523624420166,-3.31,-8.66,-3.25,9.82
2.165316104888916,-3.38,-8.69,-3.08,9.81
2.175978183746338,-3.46,-8.72,-2.91,9.82
2.1850242614746094,-3.52,-8.75,-2.73,9.81
2.1949172019958496,-3.57,-8.78,-2.56,9.81
2.2051150798797607,-3.6,-8.81,-2.39,9.81
2.2147631645202637,-3.65,-8.84,-2.23,9.82
2.236966133117676,-3.68,-8.86,-2.06,9.81
2.2381601333618164,-3.7,-8.89,-1.9,9.81
2.244126081466675,-3.73,-8.91,-1.74,9.81
2.2546591758728027,-3.73,-8.93,-1.58,9.8
2.2647619247436523,-3.74,-8.96,-1.42,9.81
2.276134967803955,-3.74,-8.97,-1.28,9.8
2.2848880290985107,-3.72,-8.99,-1.13,9.79
2.295114040374756,-3.71,-9.01,-0.98,9.79
2.3048901557922363,-3.7,-9.04,-0.83,9.8
2.314455986022949,-3.67,-9.06,-0.69,9.79
2.3247132301330566,-3.64,-9.08,-0.55,9.79
2.3400161266326904,-3.61,-9.1,-0.42,9.79
2.343780994415283,-2.76,-7.7,-0.49,8.19
2.3548130989074707,0.12,-1.24,-0.31,1.28
2.3644251823425293,25.49,46.36,1.66,52.93
2.3744192123413086,66.28,71.37,3.12,97.44
2.384079933166504,55.5,68.67,-1.85,88.31
2.3942999839782715,19.73,56.45,-2.13,59.83
2.4044032096862793,2.96,9.86,-0.19,10.29
2.4141221046447754,-3.42,-9.71,-0.22,10.29
2.424191951751709,-4.27,-9.37,-0.4,10.3
2.4393770694732666,-4.22,-8.9,-0.44,9.85
2.443547248840332,-4.42,-8.92,-0.49,9.96
2.4542579650878906,-4.56,-8.81,-0.57,9.93
2.4642560482025146,-4.72,-8.74,-0.63,9.95
2.4735889434814453,-4.88,-8.64,-0.69,9.94
2.4838850498199463,-5.04,-8.54,-0.74,9.94
2.493957996368408,-5.17,-8.45,-0.8,9.93
2.504210948944092,-5.34,-8.35,-0.87,9.94
2.5143630504608154,-5.48,-8.25,-0.94,9.94
2.523725986480713,-5.62,-8.13,-0.98,9.93
2.539341926574707,-5.77,-8.03,-1.04,9.94
2.5432450771331787,-5.91,-7.92,-1.1,9.94
2.5537772178649902,-6.04,-7.8,-1.15,9.93
2.563735008239746,-6.17,-7.68,-1.2,9.92
2.573519229888916,-6.31,-7.56,-1.26,9.92
2.583843231201172,-6.44,-7.44,-1.31,9.92
2.5942680835723877,-6.58,-7.32,-1.36,9.93
2.6038942337036133,-6.7,-7.19,-1.41,9.92
2.6287841796875,-6.83,-7.05,-1.46,9.92
2.6299760341644287,-6.95,-6.92,-1.51,9.92
2.6328670978546143,-7.07,-6.78,-1.56,9.91
2.642910957336426,-7.19,-6.64,-1.6,9.91
2.6529910564422607,-7.3,-6.51,-1.64,9.91
2.663572072982788,-7.41,-6.36,-1.68,9.9
2.67342209815979,-7.53,-6.22,-1.73,9.91
2.683474063873291,-7.64,-6.08,-1.76,9.92
2.6942391395568848,-7.75,-5.92,-1.8,9.91
2.7030391693115234,-7.85,-5.77,-1.83,9.91
2.7279551029205322,-7.95,-5.6,-1.87,9.9
2.7291979789733887,-8.04,-5.45,-1.89,9.89
2.7326622009277344,-8.02,-5.03,-1.97,9.66
2.7432100772857666,-7.26,-3.17,-2.28,8.24
2.7528252601623535,-6.71,-1.73,-2.47,7.35
2.7634830474853516,-5.61,0.39,-3.37,6.55
2.772879123687744,-1.58,5.66,-4.72,7.53
2.7833609580993652,11.09,17.42,-4.78,21.19
2.79461407661438,35.62,26.29,-0.2,44.27
2.80361008644104,65.28,19.85,17.01,70.31
2.8272221088409424,56.69,0.51,24.6,61.79
2.8295350074768066,19.59,-7.47,11.9,24.1
2.8322701454162598,3.43,-4.05,-0.95,5.39
2.8483619689941406,1.3,-2.05,-4.04,4.71
2.8524999618530273,-0.06,-2.44,-1.88,3.08
2.862771987915039,-2.56,-4.51,2.64,5.81
2.8726582527160645,-5.8,-7.39,4.58,10.45
2.882894992828369,-7.93,-7.92,-0.46,11.21
2.8927910327911377,-7.01,-5.38,-6.2,10.79
2.903144121170044,-4.4,-1.88,-7.78,9.13
2.9282491207122803,-1.15,0.35,-6.57,6.67
2.929443120956421,1.52,0.89,-5.33,5.61
2.932049036026001,2.89,0.74,-4.98,5.8
2.9420762062072754,3.61,0.66,-4.9,6.12
2.952850103378296,3.81,0.75,-4.93,6.27
2.9625461101531982,3.45,0.96,-5.03,6.17
2.9726171493530273,2.35,1.19,-5.18,5.81
2.982663154602051,0.88,1.24,-5.41,5.61
2.99241304397583,-0.47,1.12,-5.45,5.58
3.0026450157165527,-1.55,0.83,-5.13,5.42
3.02791690826416,-2.08,0.31,-4.61,5.06
3.029132127761841,-1.84,-0.29,-4.15,4.54
3.031682014465332,-1.11,-0.66,-4.16,4.35
3.0416970252990723,-0.27,-0.73,-4.15,4.22
3.0518412590026855,0.32,-0.7,-3.44,3.52
3.062382221221924,0.77,-0.78,-0.9,1.41
3.072296142578125,0.87,-0.88,3.62,3.82
3.0820932388305664,2.02,-0.79,9.37,9.61
3.0924482345581055,5.04,-1.15,14.69,15.57
3.102292060852051,8.53,-2.01,13.34,15.96
3.1269760131835938,8.54,-1.21,5.55,10.25
3.1282029151916504,5.23,1.38,-0.43,5.42
3.1314802169799805,1.9,2.12,-3.01,4.14
3.1416120529174805,-0.3,1.58,-4.24,4.53
3.15232515335083,-1.52,1.02,-4.45,4.81
3.1621742248535156,-2.07,0.57,-3.88,4.43
3.1723432540893555,-2.22,0.13,-2.8,3.57
3.1822052001953125,-1.94,-0.4,-1.34,2.39
3.191710948944092,-1.34,-0.78,0.0,1.55
3.2024669647216797,-0.68,-0.63,0.95,1.32
3.2280080318450928,0.17,-0.22,1.48,1.5
3.229419231414795,1.07,0.07,1.55,1.88
3.2312211990356445,1.58,0.24,1.16,1.97
3.2412872314453125,1.09,0.27,0.36,1.17
3.2520570755004883,0.08,0.01,-0.33,0.33
3.2627339363098145,-0.39,-0.18,-0.62,0.75
3.2717270851135254,-0.58,-0.18,-0.67,0.9
3.281975030899048,-0.34,-0.09,-0.49,0.6
3.291645050048828,0.2,0.02,-0.12,0.23
3.3023362159729004,0.43,0.04,0.25,0.49
3.328202247619629,0.29,-0.01,0.38,0.47
3.329421043395996,-0.07,-0.07,0.14,0.17
3.3309402465820312,-0.17,-0.03,-0.23,0.28
3.340970993041992,0.03,0.01,-0.36,0.36
3.351767063140869,0.21,0.01,-0.17,0.27
3.3627161979675293,0.17,-0.03,0.11,0.2
3.371401071548462,-0.01,-0.06,0.19,0.19
3.3816561698913574,-0.06,-0.05,0.04,0.08
3.3917622566223145,0.05,-0.02,-0.16,0.16
3.402071952819824,0.14,-0.01,-0.21,0.25
3.4114301204681396,0.11,-0.03,-0.11,0.15
3.4324631690979004,0.03,-0.04,0.03,0.05
3.433687210083008,0.0,-0.02,0.08,0.08
3.4406991004943848,0.05,0.01,-0.06,0.07
3.450744152069092,0.09,-0.04,-0.17,0.19
3.461498260498047,0.06,-0.07,-0.13,0.15
3.4709181785583496,0.0,-0.07,-0.06,0.09
3.4812281131744385,0.01,-0.08,-0.11,0.13
3.490877151489258,0.05,-0.1,-0.11,0.15
3.5013201236724854,0.07,-0.09,-0.07,0.13
3.5107390880584717,0.06,-0.09,-0.11,0.15
3.529405117034912,0.04,-0.05,-0.12,0.13
3.530301094055176,0.05,-0.03,-0.06,0.08
3.5403599739074707,0.08,-0.02,0.02,0.08
3.5504021644592285,0.07,0.0,0.03,0.07
3.5603530406951904,0.06,-0.01,-0.02,0.06
3.5709991455078125,0.05,-0.01,-0.09,0.1
3.580471992492676,0.05,0.01,-0.09,0.1
3.5907139778137207,0.07,0.0,-0.06,0.09
3.6011881828308105,0.06,0.01,-0.03,0.06
3.610321044921875,0.05,0.01,-0.01,0.05
3.629655122756958,0.06,0.02,-0.01,0.06
3.630801200866699,0.07,0.0,-0.01,0.07
3.6401281356811523,0.06,-0.02,-0.02,0.06
3.6500649452209473,0.05,-0.04,-0.05,0.08
3.6608710289001465,0.04,-0.05,-0.09,0.11
3.670753002166748,0.05,-0.07,-0.1,0.13
3.680662155151367,0.05,-0.07,-0.11,0.13
3.690680980682373,0.05,-0.06,-0.12,0.14
3.7005772590637207,0.04,-0.07,-0.1,0.12
3.710036039352417,0.03,-0.07,-0.07,0.1
3.7305450439453125,0.03,-0.08,-0.04,0.09
3.7317471504211426,0.04,-0.1,-0.05,0.11
3.739877223968506,0.03,-0.09,-0.07,0.11
3.7496562004089355,0.0,-0.1,-0.1,0.14
3.7603540420532227,0.02,-0.09,-0.09,0.12
3.7703661918640137,0.05,-0.06,-0.06,0.09
3.7812371253967285,0.08,-0.04,-0.07,0.11
3.79010009765625,0.09,-0.01,-0.09,0.12
3.800776958465576,0.08,0.02,-0.08,0.11
3.810042142868042,0.1,-0.01,-0.06,0.11
3.8319480419158936,0.09,-0.02,-0.02,0.09
3.833076000213623,0.04,-0.02,0.01,0.04
3.839488983154297,0.03,-0.03,0.0,0.04
3.849518060684204,0.02,0.01,-0.01,0.02
3.8600869178771973,0.05,0.04,-0.02,0.06
3.869962215423584,0.07,0.07,0.01,0.09
3.8814802169799805,0.07,0.09,0.02,0.11
3.8897600173950195,0.06,0.07,0.01,0.09
3.9003870487213135,0.04,0.04,0.0,0.05
3.909783124923706,0.04,0.0,-0.03,0.05
3.931749105453491,0.04,-0.05,-0.06,0.08
3.932965040206909,0.02,-0.1,-0.1,0.14
3.939336061477661,0.0,-0.14,-0.15,0.2
3.949090003967285,0.01,-0.17,-0.2,0.26
3.959933042526245,0.03,-0.18,-0.25,0.3
3.9696879386901855,0.04,-0.15,-0.26,0.3
3.9796690940856934,0.05,-0.13,-0.22,0.26
3.990056037902832,0.06,-0.09,-0.12,0.16
4.000036239624023,0.04,-0.06,-0.01,0.07
4.009264945983887,0.05,-0.04,0.03,0.07
4.032011032104492,0.05,-0.02,0.02,0.05
4.033206939697266,0.06,0.02,-0.02,0.06
4.0389299392700195,0.05,0.04,-0.03,0.07
4.048759937286377,0.06,0.05,-0.01,0.07
4.0596089363098145,0.07,0.07,0.01,0.09
4.069407939910889,0.08,0.07,0.03,0.11
4.079718112945557,0.09,0.07,0.02,0.11
4.0896501541137695,0.08,0.05,-0.01,0.09
4.0995800495147705,0.06,0.02,-0.06,0.08
4.109539031982422,0.13,0.0,-0.25,0.28
4.132215976715088,0.1,0.01,-0.19,0.21
4.133456230163574,-0.03,-0.03,-0.07,0.08
4.138643026351929,0.03,0.0,-0.12,0.12
4.148503065109253,0.11,-0.02,-0.18,0.21
4.158760070800781,0.07,-0.13,-0.14,0.2
4.169438123703003,0.03,-0.12,-0.06,0.13
4.178805112838745,0.06,-0.09,-0.08,0.13
4.189184188842773,0.08,-0.06,-0.16,0.18
4.198944091796875,0.14,-0.06,-0.25,0.29
4.208704948425293,0.13,-0.07,-0.25,0.29
4.232154130935669,0.11,-0.05,-0.17,0.2
4.233351230621338,0.1,-0.01,-0.16,0.18
4.238237142562866,0.09,-0.02,-0.18,0.2
4.248111248016357,0.08,-0.04,-0.18,0.2
4.258947134017944,0.12,-0.03,-0.14,0.18
4.268852233886719,0.1,-0.04,-0.06,0.12
4.278717041015625,0.03,-0.06,0.05,0.08
4.288914203643799,0.0,-0.04,0.16,0.16
4.29939603805542,-0.03,-0.02,0.21,0.21
4.308506965637207,-0.05,-0.04,0.23,0.23
4.333024978637695,-0.02,-0.05,0.2,0.2
4.334164142608643,-0.02,-0.04,0.14,0.14
4.33801007270813,-0.02,-0.02,0.08,0.08
4.348433017730713,-0.01,0.01,0.09,0.09
4.358191013336182,-0.02,0.0,0.1,0.1
4.368802070617676,0.01,0.01,0.06,0.06
4.378370046615601,0.04,0.02,-0.01,0.04
4.388477087020874,0.04,-0.02,-0.09,0.1
4.399287223815918,0.04,-0.02,-0.12,0.12
4.4082350730896,0.02,-0.03,-0.11,0.11
4.433625221252441,0.03,-0.04,-0.13,0.13
4.434855937957764,0.05,-0.05,-0.17,0.18
4.4377970695495605,0.04,-0.06,-0.2,0.21
4.448750972747803,0.03,-0.05,-0.14,0.15
4.457856178283691,0.02,-0.04,-0.08,0.09
4.468079090118408,0.01,-0.05,-0.02,0.05
4.478001117706299,0.02,-0.05,-0.03,0.06
4.4881181716918945,0.04,-0.04,-0.06,0.08
4.4984400272369385,0.04,-0.05,-0.1,0.11
4.508059024810791,0.07,-0.06,-0.13,0.15
4.536628246307373,0.04,-0.04,-0.08,0.09
4.537835121154785,0.01,-0.03,0.0,0.03
4.53899621963501,0.0,-0.01,0.01,0.01
4.547526121139526,0.03,0.0,-0.04,0.05
4.557580947875977,0.02,-0.01,-0.08,0.08
4.567685127258301,0.0,-0.01,-0.06,0.06
4.5778279304504395,0.0,-0.03,-0.02,0.03
4.5878400802612305,0.02,-0.03,-0.03,0.04
4.597618103027344,0.04,-0.03,-0.08,0.09
4.6076390743255615,0.05,-0.04,-0.12,0.13
4.633780002593994,0.03,-0.02,-0.11,0.11
4.6349639892578125,0.01,-0.01,-0.06,0.06
4.637095928192139,0.05,-0.03,-0.03,0.06
4.64710807800293,0.03,-0.01,-0.02,0.03
4.657145977020264,0.0,-0.02,-0.03,0.03
4.667659044265747,0.01,-0.01,-0.04,0.04
4.677479028701782,0.03,-0.03,-0.07,0.08
4.687462091445923,0.05,-0.03,-0.07,0.09
4.697644233703613,0.03,-0.04,-0.06,0.07
4.707312107086182,0.05,-0.04,-0.09,0.11
4.734425067901611,0.05,-0.03,-0.1,0.11
4.735573053359985,0.04,-0.03,-0.09,0.1
4.7367260456085205,0.02,-0.03,-0.07,0.07
4.7467451095581055,0.02,-0.04,-0.06,0.07
4.756798028945923,0.02,-0.04,-0.07,0.08
4.76721715927124,0.02,-0.03,-0.06,0.06
4.7772369384765625,0.02,-0.04,-0.05,0.06
4.7875590324401855,0.0,-0.02,-0.02,0.02
4.797079086303711,0.0,-0.04,-0.03,0.05
4.807271957397461,0.04,-0.03,-0.07,0.08
4.835487127304077,0.04,-0.03,-0.08,0.09
4.836651086807251,0.01,-0.03,-0.07,0.07
4.837832927703857,0.03,-0.02,-0.05,0.06
4.846364974975586,0.03,-0.02,-0.03,0.04
4.856521129608154,0.03,-0.02,-0.04,0.05
4.867573261260986,0.03,-0.03,-0.07,0.08
4.876664161682129,0.04,-0.03,-0.07,0.08
4.886826038360596,0.03,-0.03,-0.05,0.06
4.896958112716675,0.01,-0.04,-0.03,0.05
4.9068732261657715,0.04,-0.03,-0.04,0.06
4.93645715713501,0.04,-0.04,-0.1,0.11
4.937664031982422,0.0,-0.02,-0.09,0.09
4.938755035400391,0.01,-0.02,-0.04,0.04
4.946232080459595,0.06,-0.04,-0.05,0.08
4.956337928771973,0.04,-0.02,-0.07,0.08
4.968111038208008,0.01,-0.01,-0.06,0.06
4.976541996002197,0.02,-0.03,-0.02,0.04
4.986433982849121,0.03,-0.03,-0.01,0.04
4.996520042419434,0.03,-0.02,-0.04,0.05
5.0066211223602295,0.02,-0.03,-0.07,0.07
5.038784027099609,0.04,-0.03,-0.09,0.1
5.039829254150391,0.04,-0.03,-0.1,0.11
5.040953159332275,0.03,-0.03,-0.09,0.09
5.045934200286865,0.03,-0.02,-0.07,0.07
5.056012153625488,0.03,-0.01,-0.06,0.06
5.0658769607543945,0.04,-0.02,-0.06,0.07
5.076664924621582,0.04,-0.03,-0.07,0.08
5.086101055145264,0.02,-0.03,-0.07,0.07
5.095997095108032,0.01,-0.03,-0.07,0.07
5.106128215789795,0.02,-0.03,-0.07,0.07
5.116127967834473,0.03,-0.03,-0.05,0.06
5.137657165527344,0.02,-0.02,-0.07,0.07
5.138844966888428,0.03,-0.01,-0.09,0.09
5.145664215087891,0.05,-0.03,-0.05,0.07
5.1557910442352295,0.02,-0.03,-0.01,0.03
5.165643215179443,-0.01,-0.04,0.01,0.04
5.176330089569092,0.01,-0.04,-0.02,0.04
5.18615198135376,0.02,-0.02,-0.06,0.06
5.1960530281066895,0.02,-0.02,-0.1,0.1
5.205821990966797,0.02,-0.02,-0.07,0.07
5.215947151184082,0.01,-0.02,-0.05,0.05
5.237659931182861,0.04,-0.02,-0.07,0.08
5.238635063171387,0.03,-0.03,-0.09,0.09
5.245445251464844,0.01,-0.03,-0.1,0.1
5.255319118499756,0.01,-0.03,-0.06,0.06
5.265507221221924,0.04,-0.04,-0.04,0.06
5.276081085205078,0.04,-0.03,-0.03,0.05
5.285676956176758,0.03,-0.03,-0.03,0.05
5.295936107635498,0.01,-0.02,-0.04,0.04
5.322833061218262,0.01,-0.02,-0.03,0.03
5.323709011077881,0.0,-0.03,-0.02,0.03
5.3249030113220215,0.0,-0.02,-0.03,0.03
5.3350019454956055,0.0,-0.03,-0.04,0.05
5.34522008895874,-0.03,-0.04,-0.01,0.05
5.35512113571167,-0.03,-0.06,0.0,0.06
5.365943908691406,0.02,-0.05,-0.07,0.08
5.375422954559326,0.07,-0.03,-0.18,0.19
5.385796070098877,0.06,0.0,-0.23,0.23
5.3956499099731445,0.03,0.01,-0.16,0.16
5.423114061355591,-0.01,-0.02,0.0,0.02
5.424335956573486,0.0,-0.01,0.08,0.08
5.425268173217773,0.05,0.01,0.01,0.05
5.43522310256958,0.1,0.02,-0.13,0.16
5.444839000701904,0.1,0.02,-0.21,0.23
5.4547882080078125,0.04,0.0,-0.17,0.17
5.465435028076172,0.02,-0.01,-0.09,0.09
5.4752912521362305,0.05,0.0,-0.04,0.06
5.486578941345215,0.04,-0.02,-0.02,0.04
5.4952991008758545,0.01,-0.04,-0.03,0.05
5.522113084793091,0.0,-0.04,-0.04,0.05
5.523015975952148,0.03,-0.05,-0.06,0.08
5.5243449211120605,0.04,-0.06,-0.06,0.09
5.535473108291626,0.0,-0.06,-0.05,0.07
5.544785022735596,-0.01,-0.04,-0.01,0.04
5.554703235626221,0.01,-0.05,0.0,0.05
5.56517219543457,0.05,-0.03,-0.04,0.07
5.5748131275177,0.04,-0.01,-0.08,0.09
5.58466911315918,0.02,-0.01,-0.08,0.08
5.595160961151123,0.01,0.0,-0.05,0.05
5.622884035110474,0.01,0.0,-0.03,0.03
5.62414026260376,0.02,-0.04,-0.04,0.06
5.625021934509277,0.2,-0.18,0.08,0.28
5.634408950805664,0.35,-0.36,-0.05,0.5
5.644434928894043,-0.15,0.01,-0.23,0.27
5.654294013977051,-0.22,0.23,-0.11,0.33
5.665060043334961,-0.01,0.08,-0.02,0.08
5.674746990203857,-0.02,0.02,0.02,0.03
5.684837102890015,-0.15,0.11,0.01,0.18
5.694811105728149,-0.09,0.09,-0.11,0.16
